<?xml version="1.0" encoding="UTF-8"?>
<Bundle xmlns="http://hl7.org/fhir">
   <id value="62723ebf-22e3-3f2a-a3c8-8da4d2af4703"/>
   <meta>
      <lastUpdated value="2023-01-20T09:50:00.000+01:00"/>
      <profile value="https://demis.rki.de/fhir/StructureDefinition/NotificationBundleDisease"/>
   </meta>
   <identifier>
      <system value="https://demis.rki.de/fhir/NamingSystem/NotificationBundleId"/>
      <value value="3d060fc3-815d-355c-bea0-76fdebd7c483"/>
   </identifier>
   <type value="document"/>
   <timestamp value="2023-01-20T09:50:00.000+01:00"/>
   <entry>
      <fullUrl value="https://demis.rki.de/fhir/Composition/5e1203af-20a0-3fec-854d-d27bf8fa0dcd"/>
      <resource>
         <Composition xmlns="http://hl7.org/fhir">
            <id value="5e1203af-20a0-3fec-854d-d27bf8fa0dcd"/>
            <meta>
               <lastUpdated value="2023-01-20T09:50:00.000+01:00"/>
               <profile value="https://demis.rki.de/fhir/StructureDefinition/NotificationDiseaseMPVD"/>
            </meta>
            <identifier>
               <system value="https://demis.rki.de/fhir/NamingSystem/NotificationId"/>
               <value value="528082e6-9d87-11ed-a8fc-0242ac120002"/>
            </identifier>
            <status value="final"/>
            <type>
               <coding>
                  <system value="http://loinc.org"/>
                  <code value="34782-3"/>
                  <display value="Infectious disease Note"/>
               </coding>
            </type>
            <category>
               <coding>
                  <system value="https://demis.rki.de/fhir/CodeSystem/notificationType"/>
                  <code value="6.1_2"/>
                  <display value="Meldung gemäß §6 Absatz 1, 2"/>
               </coding>
            </category>
            <subject>
               <reference value="Patient/1df87a06-b3d2-3b64-bb47-a4b178e36469"/>
            </subject>
            <date value="2023-01-20T01:00:00+01:00"/>
            <author>
               <reference value="PractitionerRole/c10bb2f1-b0a5-3a4b-b7c0-510909c7ef49"/>
            </author>
            <title value="Meldung gemäß §6 Absatz 1, 2 IfSG"/>
            <section>
               <title value="Diagnose"/>
               <code>
                  <coding>
                     <system value="https://demis.rki.de/fhir/CodeSystem/sectionCode"/>
                     <code value="diagnosis"/>
                     <display value="Diagnose"/>
                  </coding>
               </code>
               <entry>
                  <reference value="Condition/74c29a05-e720-3bcc-a9ec-0bc90c82f450"/>
               </entry>
            </section>
            <section>
               <title value="Meldetatbestandsübergreifende klinische und epidemiologische Angaben"/>
               <code>
                  <coding>
                     <system value="https://demis.rki.de/fhir/CodeSystem/sectionCode"/>
                     <code value="generalClinAndEpiInformation"/>
                     <display value="Meldetatbestandsübergreifende klinische und epidemiologische Angaben"/>
                  </coding>
               </code>
               <entry>
                  <reference value="QuestionnaireResponse/d9d5a2cd-ad4b-30c4-9450-a13fd19d8afe"/>
               </entry>
            </section>
            <section>
               <title value="Meldetatbestandsspezifische klinische und epidemiologische Angaben"/>
               <code>
                  <coding>
                     <system value="https://demis.rki.de/fhir/CodeSystem/sectionCode"/>
                     <code value="specificClinAndEpiInformation"/>
                     <display value="Meldetatbestandsspezifische klinische und epidemiologische Angaben"/>
                  </coding>
               </code>
               <entry>
                  <reference value="QuestionnaireResponse/bd3aa368-c35f-329e-ad8f-76b355a5d7a4"/>
               </entry>
            </section>
         </Composition>
      </resource>
   </entry>
   <entry>
      <fullUrl value="https://demis.rki.de/fhir/Patient/1df87a06-b3d2-3b64-bb47-a4b178e36469"/>
      <resource>
         <Patient xmlns="http://hl7.org/fhir">
            <id value="1df87a06-b3d2-3b64-bb47-a4b178e36469"/>
            <meta>
               <profile value="https://demis.rki.de/fhir/StructureDefinition/NotifiedPerson"/>
            </meta>
            <name>
               <use value="official"/>
               <family value="Eilig"/>
               <given value="Birgit"/>
            </name>
            <gender value="female"/>
            <birthDate value="2001-04-13"/>
            <address>
               <extension url="https://demis.rki.de/fhir/StructureDefinition/AddressUse">
                  <valueCoding>
                     <system value="https://demis.rki.de/fhir/CodeSystem/addressUse"/>
                     <code value="primary"/>
                  </valueCoding>
               </extension>
               <line value="Bad-Gaissen-Allee 20"/>
               <city value="Berlin"/>
               <postalCode value="10219"/>
               <country value="DE"/>
            </address>
         </Patient>
      </resource>
   </entry>
   <entry>
      <fullUrl value="https://demis.rki.de/fhir/Condition/74c29a05-e720-3bcc-a9ec-0bc90c82f450"/>
      <resource>
         <Condition xmlns="http://hl7.org/fhir">
            <id value="74c29a05-e720-3bcc-a9ec-0bc90c82f450"/>
            <meta>
               <profile value="https://demis.rki.de/fhir/StructureDefinition/DiseaseMPVD"/>
            </meta>
            <verificationStatus>
               <coding>
                  <system value="http://terminology.hl7.org/CodeSystem/condition-ver-status"/>
                  <code value="confirmed"/>
               </coding>
            </verificationStatus>
            <code>
               <coding>
                  <system value="https://demis.rki.de/fhir/CodeSystem/notificationDiseaseCategory"/>
                  <code value="mpvd"/>
                  <display value="Mumps"/>
               </coding>
            </code>
            <subject>
               <reference value="Patient/1df87a06-b3d2-3b64-bb47-a4b178e36469"/>
            </subject>
            <onsetDateTime value="2023-01-15"/>
            <recordedDate value="2023-01-20"/>
            <evidence>
               <code>
                  <coding>
                     <system value="http://snomed.info/sct"/>
                     <code value="386661006"/>
                     <display value="Fieber"/>
                  </coding>
               </code>
            </evidence>
            <evidence>
               <code>
                  <coding>
                     <system value="http://snomed.info/sct"/>
                     <code value="271613005:363714003=162442009,363713009=260384008"/>
                     <display value="geschwollene Speicheldrüse (2 oder mehr Tage)"/>
                  </coding>
               </code>
            </evidence>
            <note>
               <text value="Schwellung v. A. im Wangen/Kieferbereich"/>
            </note>
         </Condition>
      </resource>
   </entry>
   <entry>
      <fullUrl value="https://demis.rki.de/fhir/Immunization/7ec3b088-a969-3314-b67d-0bacd3edb7b4"/>
      <resource>
         <Immunization xmlns="http://hl7.org/fhir">
            <id value="7ec3b088-a969-3314-b67d-0bacd3edb7b4"/>
            <meta>
               <profile value="https://demis.rki.de/fhir/StructureDefinition/ImmunizationInformationMPVD"/>
            </meta>
            <status value="completed"/>
            <vaccineCode>
               <coding>
                  <system value="http://snomed.info/sct"/>
                  <code value="2241000221103"/>
                  <display value="Masern, Mumps, Röteln- Lebendvirusimpfstoff (Priorix,M-M-RVAXPRO"/>
               </coding>
            </vaccineCode>
            <patient>
               <reference value="Patient/1df87a06-b3d2-3b64-bb47-a4b178e36469"/>
            </patient>
            <occurrenceDateTime value="2002-04-05"/>
            <note>
               <text value="-"/>
            </note>
         </Immunization>
      </resource>
   </entry>
   <entry>
      <fullUrl value="https://demis.rki.de/fhir/Immunization/426e037d-c8a1-34ec-949e-56040bfcca8b"/>
      <resource>
         <Immunization xmlns="http://hl7.org/fhir">
            <id value="426e037d-c8a1-34ec-949e-56040bfcca8b"/>
            <meta>
               <profile value="https://demis.rki.de/fhir/StructureDefinition/ImmunizationInformationMPVD"/>
            </meta>
            <status value="completed"/>
            <vaccineCode>
               <coding>
                  <system value="http://snomed.info/sct"/>
                  <code value="2241000221103"/>
                  <display value="Masern, Mumps, Röteln- Lebendvirusimpfstoff (Priorix,M-M-RVAXPRO"/>
               </coding>
            </vaccineCode>
            <patient>
               <reference value="Patient/1df87a06-b3d2-3b64-bb47-a4b178e36469"/>
            </patient>
            <occurrenceDateTime value="2002-07-22"/>
            <note>
               <text value="-"/>
            </note>
         </Immunization>
      </resource>
   </entry>
   <entry>
      <fullUrl value="https://demis.rki.de/fhir/Organization/4a372bf4-9d86-11ed-a8fc-0242ac120002"/>
      <resource>
         <Organization xmlns="http://hl7.org/fhir">
            <id value="4a372bf4-9d86-11ed-a8fc-0242ac120002"/>
            <meta>
               <profile value="https://demis.rki.de/fhir/StructureDefinition/NotifierFacility"/>
            </meta>
            <identifier>
               <system value="https://fhir.kbv.de/NamingSystem/KBV_NS_Base_BSNR"/>
               <value value="987653400"/>
            </identifier>
            <type>
               <coding>
                  <system value="https://demis.rki.de/fhir/CodeSystem/organizationType"/>
                  <code value="physicianOffice"/>
               </coding>
            </type>
            <name value="Unsere Ambulanz – Meldestandort"/>
            <telecom>
               <system value="phone"/>
               <value value="0308976543210"/>
               <use value="work"/>
            </telecom>
            <address>
               <line value="Engelsweg 19"/>
               <city value="Berlin"/>
               <postalCode value="12042"/>
               <country value="DE"/>
            </address>
         </Organization>
      </resource>
   </entry>
   <entry>
      <fullUrl value="https://demis.rki.de/fhir/PractitionerRole/c10bb2f1-b0a5-3a4b-b7c0-510909c7ef49"/>
      <resource>
         <PractitionerRole xmlns="http://hl7.org/fhir">
            <id value="c10bb2f1-b0a5-3a4b-b7c0-510909c7ef49"/>
            <meta>
               <profile value="https://demis.rki.de/fhir/StructureDefinition/NotifierRole"/>
            </meta>
            <organization>
               <reference value="Organization/4a372bf4-9d86-11ed-a8fc-0242ac120002"/>
            </organization>
         </PractitionerRole>
      </resource>
   </entry>
   <entry>
      <fullUrl value="https://demis.rki.de/fhir/Organization/443dcafa-9d86-11ed-a8fc-0242ac120002"/>
      <resource>
         <Organization xmlns="http://hl7.org/fhir">
            <id value="443dcafa-9d86-11ed-a8fc-0242ac120002"/>
            <meta>
               <profile value="http://hl7.org/fhir/StructureDefinition/Organization"/>
            </meta>
            <type>
               <coding>
                  <system value="https://demis.rki.de/fhir/CodeSystem/organizationType"/>
                  <code value="hospitalLab"/>
               </coding>
            </type>
            <name value="Gemeinschaftskrankenhaus Berlin – Krankenhauslabor"/>
            <telecom>
               <system value="phone"/>
               <value value="0301891213"/>
               <use value="work"/>
            </telecom>
            <address>
               <line value="Karl-Marx-Straße 19"/>
               <city value="Berlin"/>
               <postalCode value="10378"/>
               <country value="DE"/>
            </address>
         </Organization>
      </resource>
   </entry>
   <entry>
      <fullUrl value="https://demis.rki.de/fhir/QuestionnaireResponse/d9d5a2cd-ad4b-30c4-9450-a13fd19d8afe"/>
      <resource>
         <QuestionnaireResponse xmlns="http://hl7.org/fhir">
            <id value="d9d5a2cd-ad4b-30c4-9450-a13fd19d8afe"/>
            <meta>
               <profile value="https://demis.rki.de/fhir/StructureDefinition/DiseaseInformationCommon"/>
            </meta>
            <questionnaire value="https://demis.rki.de/fhir/Questionnaire/DiseaseQuestionsCommon"/>
            <status value="completed"/>
            <subject>
               <reference value="Patient/1df87a06-b3d2-3b64-bb47-a4b178e36469"/>
            </subject>
            <item>
               <linkId value="isDead"/>
               <answer>
                  <valueCoding>
                     <system value="https://demis.rki.de/fhir/CodeSystem/yesOrNoAnswer"/>
                     <code value="no"/>
                     <display value="Nein"/>
                  </valueCoding>
               </answer>
            </item>
            <item>
               <linkId value="militaryAffiliation"/>
               <answer>
                  <valueCoding>
                     <system value="https://demis.rki.de/fhir/CodeSystem/militaryAffiliation"/>
                     <code value="noReferenceToBundeswehr"/>
                     <display value="Kein Bezug zur BW"/>
                  </valueCoding>
               </answer>
            </item>
            <item>
               <linkId value="labSpecimenTaken"/>
               <answer>
                  <valueCoding>
                     <system value="https://demis.rki.de/fhir/CodeSystem/yesOrNoAnswer"/>
                     <code value="yes"/>
                     <display value="Ja"/>
                  </valueCoding>
                  <item>
                     <linkId value="labSpecimenLab"/>
                     <answer>
                        <valueReference>
                           <reference value="Organization/443dcafa-9d86-11ed-a8fc-0242ac120002"/>
                        </valueReference>
                     </answer>
                  </item>
               </answer>
            </item>
            <item>
               <linkId value="hospitalized"/>
               <answer>
                  <valueCoding>
                     <system value="https://demis.rki.de/fhir/CodeSystem/yesOrNoAnswer"/>
                     <code value="no"/>
                     <display value="Nein"/>
                  </valueCoding>
               </answer>
            </item>
            <item>
               <linkId value="infectProtectFacility"/>
               <answer>
                  <valueCoding>
                     <system value="http://terminology.hl7.org/CodeSystem/v3-NullFlavor"/>
                     <code value="ASKU"/>
                     <display value="asked but unknown"/>
                  </valueCoding>
               </answer>
            </item>
            <item>
               <linkId value="placeExposure"/>
               <answer>
                  <valueCoding>
                     <system value="https://demis.rki.de/fhir/CodeSystem/yesOrNoAnswer"/>
                     <code value="yes"/>
                     <display value="Ja"/>
                  </valueCoding>
                  <item>
                     <linkId value="placeExposureGroup"/>
                     <item>
                        <linkId value="placeExposureBegin"/>
                        <answer>
                           <valueDate value="2023-03-10"/>
                        </answer>
                     </item>
                     <item>
                        <linkId value="placeExposureEnd"/>
                        <answer>
                           <valueDate value="2023-03-16"/>
                        </answer>
                     </item>
                     <item>
                        <linkId value="placeExposureRegion"/>
                        <answer>
                           <valueCoding>
                              <system value="https://demis.rki.de/fhir/CodeSystem/geographicRegion"/>
                              <code value="21000135"/>
                              <display value="Niederlande"/>
                           </valueCoding>
                        </answer>
                     </item>
                     <item>
                        <linkId value="placeExposureHint"/>
                        <answer>
                           <valueString value="Studentische Konferenz"/>
                        </answer>
                     </item>
                  </item>
               </answer>
            </item>
            <item>
               <linkId value="organDonation"/>
               <answer>
                  <valueCoding>
                     <system value="http://terminology.hl7.org/CodeSystem/v3-NullFlavor"/>
                     <code value="NASK"/>
                     <display value="not asked"/>
                  </valueCoding>
               </answer>
            </item>
            <item>
               <linkId value="additionalInformation"/>
               <answer>
                  <valueString value="-"/>
               </answer>
            </item>
         </QuestionnaireResponse>
      </resource>
   </entry>
   <entry>
      <fullUrl value="https://demis.rki.de/fhir/QuestionnaireResponse/bd3aa368-c35f-329e-ad8f-76b355a5d7a4"/>
      <resource>
         <QuestionnaireResponse xmlns="http://hl7.org/fhir">
            <id value="bd3aa368-c35f-329e-ad8f-76b355a5d7a4"/>
            <meta>
               <profile value="https://demis.rki.de/fhir/StructureDefinition/DiseaseInformationMPVD"/>
            </meta>
            <questionnaire value="https://demis.rki.de/fhir/Questionnaire/DiseaseQuestionsMPVD"/>
            <status value="completed"/>
            <subject>
               <reference value="Patient/1df87a06-b3d2-3b64-bb47-a4b178e36469"/>
            </subject>
            <item>
               <linkId value="immunization"/>
               <answer>
                  <valueCoding>
                     <system value="https://demis.rki.de/fhir/CodeSystem/yesOrNoAnswer"/>
                     <code value="yes"/>
                     <display value="Ja"/>
                  </valueCoding>
                  <item>
                     <linkId value="immunizationRef"/>
                     <answer>
                        <valueReference>
                           <reference value="Immunization/7ec3b088-a969-3314-b67d-0bacd3edb7b4"/>
                        </valueReference>
                     </answer>
                  </item>
                  <item>
                     <linkId value="immunizationRef"/>
                     <answer>
                        <valueReference>
                           <reference value="Immunization/426e037d-c8a1-34ec-949e-56040bfcca8b"/>
                        </valueReference>
                     </answer>
                  </item>
               </answer>
            </item>
            <item>
               <linkId value="outbreak"/>
               <answer>
                  <valueCoding>
                     <system value="https://demis.rki.de/fhir/CodeSystem/yesOrNoAnswer"/>
                     <code value="no"/>
                     <display value="Nein"/>
                  </valueCoding>
               </answer>
            </item>
         </QuestionnaireResponse>
      </resource>
   </entry>
</Bundle>
