<Bundle xmlns="http://hl7.org/fhir">
   <id value="9cd6f9ce-8c3e-3450-9995-28b296f48484"></id>
   <meta>
      <lastUpdated value="2023-04-01T09:50:00.000+01:00"></lastUpdated>
      <profile value="https://demis.rki.de/fhir/StructureDefinition/NotificationBundleDisease"></profile>
   </meta>
   <identifier>
      <system value="https://demis.rki.de/fhir/NamingSystem/NotificationBundleId"></system>
      <value value="20e65bd8-3b44-3832-ba14-77cab1e8b7e5"></value>
   </identifier>
   <type value="document"></type>
   <timestamp value="2023-04-01T09:50:00.000+01:00"></timestamp>
   <entry>
      <fullUrl value="https://demis.rki.de/fhir/Composition/55156ffa-1a73-3cd3-84fe-9ef9b014699a"></fullUrl>
      <resource>
         <Composition xmlns="http://hl7.org/fhir">
            <id value="55156ffa-1a73-3cd3-84fe-9ef9b014699a"></id>
            <meta>
               <lastUpdated value="2023-04-01T09:50:00.000+01:00"></lastUpdated>
               <profile value="https://demis.rki.de/fhir/StructureDefinition/NotificationDiseaseRUVD"></profile>
            </meta>
            <identifier>
               <system value="https://demis.rki.de/fhir/NamingSystem/NotificationId"></system>
               <value value="b4101fca-a940-11ed-afa1-0242ac120002"></value>
            </identifier>
            <status value="final"></status>
            <type>
               <coding>
                  <system value="http://loinc.org"></system>
                  <code value="34782-3"></code>
                  <display value="Infectious disease Note"></display>
               </coding>
            </type>
            <category>
               <coding>
                  <system value="https://demis.rki.de/fhir/CodeSystem/notificationType"></system>
                  <code value="6.1_2"></code>
                  <display value="Meldung gemäß §6 Absatz 1, 2"></display>
               </coding>
            </category>
            <subject>
               <reference value="Patient/d9b66d8f-02fd-318d-8df7-e960e250cff4"></reference>
            </subject>
            <date value="2023-04-01T02:00:00+02:00"></date>
            <author>
               <reference value="PractitionerRole/1f544f20-5812-3d8a-aa75-c766c25d2000"></reference>
            </author>
            <title value="Meldung gemäß §6 Absatz 1, 2 IfSG"></title>
            <section>
               <title value="Diagnose"></title>
               <code>
                  <coding>
                     <system value="https://demis.rki.de/fhir/CodeSystem/sectionCode"></system>
                     <code value="diagnosis"></code>
                     <display value="Diagnose"></display>
                  </coding>
               </code>
               <entry>
                  <reference value="Condition/6e5aeaaa-d3c8-3501-a52a-3dc452668fa7"></reference>
               </entry>
            </section>
            <section>
               <title value="Meldetatbestandsübergreifende klinische und epidemiologische Angaben"></title>
               <code>
                  <coding>
                     <system value="https://demis.rki.de/fhir/CodeSystem/sectionCode"></system>
                     <code value="generalClinAndEpiInformation"></code>
                     <display value="Meldetatbestandsübergreifende klinische und epidemiologische Angaben"></display>
                  </coding>
               </code>
               <entry>
                  <reference value="QuestionnaireResponse/fe6a6d40-7374-3000-a1b5-c3a1438472bc"></reference>
               </entry>
            </section>
            <section>
               <title value="Meldetatbestandsspezifische klinische und epidemiologische Angaben"></title>
               <code>
                  <coding>
                     <system value="https://demis.rki.de/fhir/CodeSystem/sectionCode"></system>
                     <code value="specificClinAndEpiInformation"></code>
                     <display value="Meldetatbestandsspezifische klinische und epidemiologische Angaben"></display>
                  </coding>
               </code>
               <entry>
                  <reference value="QuestionnaireResponse/2cd24fc3-48a5-3411-837b-c48128a1edf2"></reference>
               </entry>
            </section>
         </Composition>
      </resource>
   </entry>
   <entry>
      <fullUrl value="https://demis.rki.de/fhir/Organization/356deb9a-6dbc-34f3-8beb-909bce9aeab4"></fullUrl>
      <resource>
         <Organization xmlns="http://hl7.org/fhir">
            <id value="356deb9a-6dbc-34f3-8beb-909bce9aeab4"></id>
            <meta>
               <profile value="https://demis.rki.de/fhir/StructureDefinition/NotifiedPersonFacility"></profile>
            </meta>
            <name value="Krankenhaus am See"></name>
            <address>
               <line value="Krakener Straße 92"></line>
               <city value="Berlin"></city>
               <postalCode value="12042"></postalCode>
               <country value="DE"></country>
            </address>
            <contact>
               <name>
                  <use value="official"></use>
                  <family value="Seemann"></family>
                  <given value="Ursula"></given>
               </name>
            </contact>
         </Organization>
      </resource>
   </entry>
   <entry>
      <fullUrl value="https://demis.rki.de/fhir/Patient/d9b66d8f-02fd-318d-8df7-e960e250cff4"></fullUrl>
      <resource>
         <Patient xmlns="http://hl7.org/fhir">
            <id value="d9b66d8f-02fd-318d-8df7-e960e250cff4"></id>
            <meta>
               <profile value="https://demis.rki.de/fhir/StructureDefinition/NotifiedPerson"></profile>
            </meta>
            <name>
               <use value="official"></use>
               <family value="Brüll"></family>
               <given value="Mara"></given>
            </name>
            <telecom>
               <system value="phone"></system>
               <value value="030 123456789"></value>
            </telecom>
            <telecom>
               <system value="email"></system>
               <value value="bb@hfksjfhdaksljdfhsakl.de"></value>
            </telecom>
            <gender value="other"></gender>
            <birthDate value="1998-08-10"></birthDate>
            <address>
               <extension url="https://demis.rki.de/fhir/StructureDefinition/AddressUse">
                  <valueCoding>
                     <system value="https://demis.rki.de/fhir/CodeSystem/addressUse"></system>
                     <code value="current"></code>
                  </valueCoding>
               </extension>
               <extension url="https://demis.rki.de/fhir/StructureDefinition/FacilityAddressNotifiedPerson">
                  <valueReference>
                     <reference value="Organization/356deb9a-6dbc-34f3-8beb-909bce9aeab4"></reference>
                  </valueReference>
               </extension>
            </address>
            <address>
               <extension url="https://demis.rki.de/fhir/StructureDefinition/AddressUse">
                  <valueCoding>
                     <system value="https://demis.rki.de/fhir/CodeSystem/addressUse"></system>
                     <code value="primary"></code>
                  </valueCoding>
               </extension>
               <line value="Bertolt-Brecht-Platz 1"></line>
               <city value="Berlin"></city>
               <postalCode value="10117"></postalCode>
               <country value="DE"></country>
            </address>
         </Patient>
      </resource>
   </entry>
   <entry>
      <fullUrl value="https://demis.rki.de/fhir/Condition/6e5aeaaa-d3c8-3501-a52a-3dc452668fa7"></fullUrl>
      <resource>
         <Condition xmlns="http://hl7.org/fhir">
            <id value="6e5aeaaa-d3c8-3501-a52a-3dc452668fa7"></id>
            <meta>
               <profile value="https://demis.rki.de/fhir/StructureDefinition/DiseaseRUVD"></profile>
            </meta>
            <verificationStatus>
               <coding>
                  <system value="http://terminology.hl7.org/CodeSystem/condition-ver-status"></system>
                  <code value="confirmed"></code>
               </coding>
            </verificationStatus>
            <code>
               <coding>
                  <system value="https://demis.rki.de/fhir/CodeSystem/notificationDiseaseCategory"></system>
                  <code value="ruvd"></code>
                  <display value="Röteln"></display>
               </coding>
            </code>
            <subject>
               <reference value="Patient/d9b66d8f-02fd-318d-8df7-e960e250cff4"></reference>
            </subject>
            <onsetDateTime value="2023-03-29"></onsetDateTime>
            <recordedDate value="2023-04-01"></recordedDate>
            <evidence>
               <code>
                  <coding>
                     <system value="http://snomed.info/sct"></system>
                     <code value="3723001"></code>
                     <display value="Gelenkentzündung (Arthritis)"></display>
                  </coding>
               </code>
            </evidence>
            <evidence>
               <code>
                  <coding>
                     <system value="http://snomed.info/sct"></system>
                     <code value="425061006"></code>
                     <display value="Lymphknotenschwellung im Kopf-, Hals- oder Nackenbereich"></display>
                  </coding>
               </code>
            </evidence>
            <evidence>
               <code>
                  <coding>
                     <system value="http://snomed.info/sct"></system>
                     <code value="32398004"></code>
                     <display value="Bronchitis"></display>
                  </coding>
               </code>
            </evidence>
            <evidence>
               <code>
                  <coding>
                     <system value="http://snomed.info/sct"></system>
                     <code value="725119006"></code>
                     <display value="Ausschlag, generalisiert"></display>
                  </coding>
               </code>
            </evidence>
            <note>
               <text value="Autoimmunerkrankt (Lupus)"></text>
            </note>
         </Condition>
      </resource>
   </entry>
   <entry>
      <fullUrl value="https://demis.rki.de/fhir/Immunization/548ea96f-fd59-3b6b-b001-a6c08d0ecd02"></fullUrl>
      <resource>
         <Immunization xmlns="http://hl7.org/fhir">
            <id value="548ea96f-fd59-3b6b-b001-a6c08d0ecd02"></id>
            <meta>
               <profile value="https://demis.rki.de/fhir/StructureDefinition/ImmunizationInformationRUVD"></profile>
            </meta>
            <status value="completed"></status>
            <vaccineCode>
               <coding>
                  <system value="http://snomed.info/sct"></system>
                  <code value="2241000221103"></code>
                  <display value="Masern-Mumps-Röteln-Lebendvirusimpfstoff (Priorix,M-M-RVAXPRO)"></display>
               </coding>
            </vaccineCode>
            <patient>
               <reference value="Patient/d9b66d8f-02fd-318d-8df7-e960e250cff4"></reference>
            </patient>
            <occurrenceDateTime value="1999-07-01"></occurrenceDateTime>
            <note>
               <text value="-"></text>
            </note>
         </Immunization>
      </resource>
   </entry>
   <entry>
      <fullUrl value="https://demis.rki.de/fhir/Immunization/22f3185c-62a2-378d-8775-ebf461a63072"></fullUrl>
      <resource>
         <Immunization xmlns="http://hl7.org/fhir">
            <id value="22f3185c-62a2-378d-8775-ebf461a63072"></id>
            <meta>
               <profile value="https://demis.rki.de/fhir/StructureDefinition/ImmunizationInformationRUVD"></profile>
            </meta>
            <status value="completed"></status>
            <vaccineCode>
               <coding>
                  <system value="http://snomed.info/sct"></system>
                  <code value="2241000221103"></code>
                  <display value="Masern-Mumps-Röteln-Lebendvirusimpfstoff (Priorix,M-M-RVAXPRO)"></display>
               </coding>
            </vaccineCode>
            <patient>
               <reference value="Patient/d9b66d8f-02fd-318d-8df7-e960e250cff4"></reference>
            </patient>
            <occurrenceDateTime value="1999-11-15"></occurrenceDateTime>
            <note>
               <text value="-"></text>
            </note>
         </Immunization>
      </resource>
   </entry>
   <entry>
      <fullUrl value="https://demis.rki.de/fhir/Organization/8ba2621e-a940-11ed-afa1-0242ac120002"></fullUrl>
      <resource>
         <Organization xmlns="http://hl7.org/fhir">
            <id value="8ba2621e-a940-11ed-afa1-0242ac120002"></id>
            <meta>
               <profile value="https://demis.rki.de/fhir/StructureDefinition/NotifierFacility"></profile>
            </meta>
            <identifier>
               <system value="http://fhir.de/sid/arge-ik/iknr"></system>
            </identifier>
            <type>
               <coding>
                  <system value="https://demis.rki.de/fhir/CodeSystem/organizationType"></system>
                  <code value="hospital"></code>
               </coding>
            </type>
            <name value="Krankenhaus am See – Meldestandort"></name>
            <telecom>
               <system value="phone"></system>
               <value value="030 123456789"></value>
               <use value="work"></use>
            </telecom>
            <address>
               <line value="Krakener Straße 92"></line>
               <city value="Berlin"></city>
               <postalCode value="12042"></postalCode>
               <country value="DE"></country>
            </address>
         </Organization>
      </resource>
   </entry>
   <entry>
      <fullUrl value="https://demis.rki.de/fhir/PractitionerRole/1f544f20-5812-3d8a-aa75-c766c25d2000"></fullUrl>
      <resource>
         <PractitionerRole xmlns="http://hl7.org/fhir">
            <id value="1f544f20-5812-3d8a-aa75-c766c25d2000"></id>
            <meta>
               <profile value="https://demis.rki.de/fhir/StructureDefinition/NotifierRole"></profile>
            </meta>
            <organization>
               <reference value="Organization/8ba2621e-a940-11ed-afa1-0242ac120002"></reference>
            </organization>
         </PractitionerRole>
      </resource>
   </entry>
   <entry>
      <fullUrl value="https://demis.rki.de/fhir/Organization/93ef9ce8-a940-11ed-afa1-0242ac120002"></fullUrl>
      <resource>
         <Organization xmlns="http://hl7.org/fhir">
            <id value="93ef9ce8-a940-11ed-afa1-0242ac120002"></id>
            <meta>
               <profile value="http://hl7.org/fhir/StructureDefinition/Organization"></profile>
            </meta>
            <type>
               <coding>
                  <system value="https://demis.rki.de/fhir/CodeSystem/organizationType"></system>
                  <code value="hospitalLab"></code>
               </coding>
            </type>
            <name value="Sankt Gertrauden Krankenhaus - Krankenhauslabor"></name>
            <telecom>
               <system value="phone"></system>
               <value value="309876543211"></value>
               <use value="work"></use>
            </telecom>
            <address>
               <line value="Dingsweg 321"></line>
               <city value="Berlin"></city>
               <postalCode value="13055"></postalCode>
               <country value="DE"></country>
            </address>
         </Organization>
      </resource>
   </entry>
   <entry>
      <fullUrl value="https://demis.rki.de/fhir/Encounter/eb6a9e06-9168-3218-8222-db65d3796664"></fullUrl>
      <resource>
         <Encounter xmlns="http://hl7.org/fhir">
            <id value="eb6a9e06-9168-3218-8222-db65d3796664"></id>
            <meta>
               <profile value="https://demis.rki.de/fhir/StructureDefinition/Hospitalization"></profile>
            </meta>
            <status value="in-progress"></status>
            <class>
               <system value="http://terminology.hl7.org/CodeSystem/v3-ActCode"></system>
               <code value="IMP"></code>
               <display value="inpatient encounter"></display>
            </class>
            <serviceType>
               <coding>
                  <system value="https://demis.rki.de/fhir/CodeSystem/hospitalizationServiceType"></system>
                  <code value="3700"></code>
                  <display value="Sonstige Fachabteilung"></display>
               </coding>
            </serviceType>
            <subject>
               <reference value="Patient/d9b66d8f-02fd-318d-8df7-e960e250cff4"></reference>
            </subject>
            <period>
               <start value="2023-04-01"></start>
            </period>
            <serviceProvider>
               <reference value="Organization/356deb9a-6dbc-34f3-8beb-909bce9aeab4"></reference>
            </serviceProvider>
         </Encounter>
      </resource>
   </entry>
   <entry>
      <fullUrl value="https://demis.rki.de/fhir/QuestionnaireResponse/fe6a6d40-7374-3000-a1b5-c3a1438472bc"></fullUrl>
      <resource>
         <QuestionnaireResponse xmlns="http://hl7.org/fhir">
            <id value="fe6a6d40-7374-3000-a1b5-c3a1438472bc"></id>
            <meta>
               <profile value="https://demis.rki.de/fhir/StructureDefinition/DiseaseInformationCommon"></profile>
            </meta>
            <questionnaire value="https://demis.rki.de/fhir/Questionnaire/DiseaseQuestionsCommon"></questionnaire>
            <status value="completed"></status>
            <subject>
               <reference value="Patient/d9b66d8f-02fd-318d-8df7-e960e250cff4"></reference>
            </subject>
            <item>
               <linkId value="isDead"></linkId>
               <answer>
                  <valueCoding>
                     <system value="https://demis.rki.de/fhir/CodeSystem/yesOrNoAnswer"></system>
                     <code value="no"></code>
                     <display value="Nein"></display>
                  </valueCoding>
               </answer>
            </item>
            <item>
               <linkId value="militaryAffiliation"></linkId>
               <answer>
                  <valueCoding>
                     <system value="https://demis.rki.de/fhir/CodeSystem/militaryAffiliation"></system>
                     <code value="noReferenceToBundeswehr"></code>
                     <display value="Kein Bezug zur BW"></display>
                  </valueCoding>
               </answer>
            </item>
            <item>
               <linkId value="labSpecimenTaken"></linkId>
               <answer>
                  <valueCoding>
                     <system value="https://demis.rki.de/fhir/CodeSystem/yesOrNoAnswer"></system>
                     <code value="yes"></code>
                     <display value="Ja"></display>
                  </valueCoding>
                  <item>
                     <linkId value="labSpecimenLab"></linkId>
                     <answer>
                        <valueReference>
                           <reference value="Organization/93ef9ce8-a940-11ed-afa1-0242ac120002"></reference>
                        </valueReference>
                     </answer>
                  </item>
               </answer>
            </item>
            <item>
               <linkId value="hospitalized"></linkId>
               <answer>
                  <valueCoding>
                     <system value="https://demis.rki.de/fhir/CodeSystem/yesOrNoAnswer"></system>
                     <code value="yes"></code>
                     <display value="Ja"></display>
                  </valueCoding>
                  <item>
                     <linkId value="hospitalizedGroup"></linkId>
                     <item>
                        <linkId value="hospitalizedEncounter"></linkId>
                        <answer>
                           <valueReference>
                              <reference value="Encounter/eb6a9e06-9168-3218-8222-db65d3796664"></reference>
                           </valueReference>
                        </answer>
                     </item>
                  </item>
               </answer>
            </item>
            <item>
               <linkId value="infectProtectFacility"></linkId>
               <answer>
                  <valueCoding>
                     <system value="http://terminology.hl7.org/CodeSystem/v3-NullFlavor"></system>
                     <code value="ASKU"></code>
                     <display value="asked but unknown"></display>
                  </valueCoding>
               </answer>
            </item>
            <item>
               <linkId value="placeExposure"></linkId>
               <answer>
                  <valueCoding>
                     <system value="https://demis.rki.de/fhir/CodeSystem/yesOrNoAnswer"></system>
                     <code value="no"></code>
                     <display value="Nein"></display>
                  </valueCoding>
               </answer>
            </item>
            <item>
               <linkId value="organDonation"></linkId>
               <answer>
                  <valueCoding>
                     <system value="https://demis.rki.de/fhir/CodeSystem/yesOrNoAnswer"></system>
                     <code value="no"></code>
                     <display value="Nein"></display>
                  </valueCoding>
               </answer>
            </item>
            <item>
               <linkId value="additionalInformation"></linkId>
               <answer>
                  <valueString value="-"></valueString>
               </answer>
            </item>
         </QuestionnaireResponse>
      </resource>
   </entry>
   <entry>
      <fullUrl value="https://demis.rki.de/fhir/QuestionnaireResponse/2cd24fc3-48a5-3411-837b-c48128a1edf2"></fullUrl>
      <resource>
         <QuestionnaireResponse xmlns="http://hl7.org/fhir">
            <id value="2cd24fc3-48a5-3411-837b-c48128a1edf2"></id>
            <meta>
               <profile value="https://demis.rki.de/fhir/StructureDefinition/DiseaseInformationRUVD"></profile>
            </meta>
            <questionnaire value="https://demis.rki.de/fhir/Questionnaire/DiseaseQuestionsRUVD"></questionnaire>
            <status value="completed"></status>
            <subject>
               <reference value="Patient/d9b66d8f-02fd-318d-8df7-e960e250cff4"></reference>
            </subject>
            <item>
               <linkId value="immunization"></linkId>
               <answer>
                  <valueCoding>
                     <system value="https://demis.rki.de/fhir/CodeSystem/yesOrNoAnswer"></system>
                     <code value="yes"></code>
                     <display value="Ja"></display>
                  </valueCoding>
                  <item>
                     <linkId value="immunizationRef"></linkId>
                     <answer>
                        <valueReference>
                           <reference value="Immunization/548ea96f-fd59-3b6b-b001-a6c08d0ecd02"></reference>
                        </valueReference>
                     </answer>
                  </item>
                  <item>
                     <linkId value="immunizationRef"></linkId>
                     <answer>
                        <valueReference>
                           <reference value="Immunization/22f3185c-62a2-378d-8775-ebf461a63072"></reference>
                        </valueReference>
                     </answer>
                  </item>
               </answer>
            </item>
            <item>
               <linkId value="pregnancy"></linkId>
               <answer>
                  <valueCoding>
                     <system value="https://demis.rki.de/fhir/CodeSystem/yesOrNoAnswer"></system>
                     <code value="no"></code>
                     <display value="Nein"></display>
                  </valueCoding>
               </answer>
            </item>
            <item>
               <linkId value="outbreak"></linkId>
               <answer>
                  <valueCoding>
                     <system value="https://demis.rki.de/fhir/CodeSystem/yesOrNoAnswer"></system>
                     <code value="no"></code>
                     <display value="Nein"></display>
                  </valueCoding>
               </answer>
            </item>
         </QuestionnaireResponse>
      </resource>
   </entry>
</Bundle>