<?xml version="1.0" encoding="UTF-8"?>
<Bundle xmlns="http://hl7.org/fhir">
   <id value="b9ba6cfa-6ad0-3b1e-814a-9afc032ded27"/>
   <meta>
      <lastUpdated value="2023-04-20T09:50:00.000+01:00"/>
      <profile value="https://demis.rki.de/fhir/StructureDefinition/NotificationBundleDisease"/>
   </meta>
   <identifier>
      <system value="https://demis.rki.de/fhir/NamingSystem/NotificationBundleId"/>
      <value value="e36e612c-4b5d-31f1-8daf-cbbf2fd5ef1c"/>
   </identifier>
   <type value="document"/>
   <timestamp value="2023-04-20T09:50:00.000+01:00"/>
   <entry>
      <fullUrl value="https://demis.rki.de/fhir/Composition/bfc4a6b7-af10-308c-9c5c-bb5e6c5f75e8"/>
      <resource>
         <Composition xmlns="http://hl7.org/fhir">
            <id value="bfc4a6b7-af10-308c-9c5c-bb5e6c5f75e8"/>
            <meta>
               <lastUpdated value="2023-04-20T09:50:00.000+01:00"/>
               <profile value="https://demis.rki.de/fhir/StructureDefinition/NotificationDiseaseMYBD"/>
            </meta>
            <identifier>
               <system value="https://demis.rki.de/fhir/NamingSystem/NotificationId"/>
               <value value="6f7b730e-5b44-43b6-b9d5-d72d3e2b2e62"/>
            </identifier>
            <status value="final"/>
            <type>
               <coding>
                  <system value="http://loinc.org"/>
                  <code value="34782-3"/>
                  <display value="Infectious disease Note"/>
               </coding>
            </type>
            <category>
               <coding>
                  <system value="https://demis.rki.de/fhir/CodeSystem/notificationType"/>
                  <code value="6.1_2"/>
                  <display value="Meldung gemäß §6 Absatz 1, 2"/>
               </coding>
            </category>
            <subject>
               <reference value="Patient/b2a47276-f22e-3ca9-8f8a-f08729ec7b19"/>
            </subject>
            <date value="2023-04-20T02:00:00+02:00"/>
            <author>
               <reference value="PractitionerRole/139b96e7-fe5b-3d73-b7c3-1143ea876006"/>
            </author>
            <title value="Meldung gemäß §6 Absatz 1, 2 IfSG"/>
            <section>
               <title value="Diagnose"/>
               <code>
                  <coding>
                     <system value="https://demis.rki.de/fhir/CodeSystem/sectionCode"/>
                     <code value="diagnosis"/>
                     <display value="Diagnose"/>
                  </coding>
               </code>
               <entry>
                  <reference value="Condition/8b4cb026-2560-3e9b-bbe7-2e3e9a6d44dc"/>
               </entry>
            </section>
            <section>
               <title value="Meldetatbestandsübergreifende klinische und epidemiologische Angaben"/>
               <code>
                  <coding>
                     <system value="https://demis.rki.de/fhir/CodeSystem/sectionCode"/>
                     <code value="generalClinAndEpiInformation"/>
                     <display value="Meldetatbestandsübergreifende klinische und epidemiologische Angaben"/>
                  </coding>
               </code>
               <entry>
                  <reference value="QuestionnaireResponse/4e85b578-fcc4-3fd6-aa48-276efd376bf5"/>
               </entry>
            </section>
            <section>
               <title value="Meldetatbestandsspezifische klinische und epidemiologische Angaben"/>
               <code>
                  <coding>
                     <system value="https://demis.rki.de/fhir/CodeSystem/sectionCode"/>
                     <code value="specificClinAndEpiInformation"/>
                     <display value="Meldetatbestandsspezifische klinische und epidemiologische Angaben"/>
                  </coding>
               </code>
               <entry>
                  <reference value="QuestionnaireResponse/a00b8845-2ebd-3c4d-bfb7-d7fa3d618c63"/>
               </entry>
            </section>
         </Composition>
      </resource>
   </entry>
   <entry>
      <fullUrl value="https://demis.rki.de/fhir/Patient/b2a47276-f22e-3ca9-8f8a-f08729ec7b19"/>
      <resource>
         <Patient xmlns="http://hl7.org/fhir">
            <id value="b2a47276-f22e-3ca9-8f8a-f08729ec7b19"/>
            <meta>
               <profile value="https://demis.rki.de/fhir/StructureDefinition/NotifiedPerson"/>
            </meta>
            <name>
               <use value="official"/>
               <family value="Sulayman"/>
               <given value="Rahal"/>
            </name>
            <telecom>
               <system value="phone"/>
               <value value="03044948433"/>
            </telecom>
            <gender value="other"/>
            <birthDate value="1945-11-09"/>
            <address>
               <extension url="https://demis.rki.de/fhir/StructureDefinition/AddressUse">
                  <valueCoding>
                     <system value="https://demis.rki.de/fhir/CodeSystem/addressUse"/>
                     <code value="primary"/>
                  </valueCoding>
               </extension>
               <line value="Togostr. 3"/>
               <city value="Berlin"/>
               <postalCode value="13351"/>
               <country value="DE"/>
            </address>
         </Patient>
      </resource>
   </entry>
   <entry>
      <fullUrl value="https://demis.rki.de/fhir/Condition/8b4cb026-2560-3e9b-bbe7-2e3e9a6d44dc"/>
      <resource>
         <Condition xmlns="http://hl7.org/fhir">
            <id value="8b4cb026-2560-3e9b-bbe7-2e3e9a6d44dc"/>
            <meta>
               <profile value="https://demis.rki.de/fhir/StructureDefinition/DiseaseMYBD"/>
            </meta>
            <verificationStatus>
               <coding>
                  <system value="http://terminology.hl7.org/CodeSystem/condition-ver-status"/>
                  <code value="confirmed"/>
               </coding>
            </verificationStatus>
            <code>
               <coding>
                  <system value="https://demis.rki.de/fhir/CodeSystem/notificationDiseaseCategory"/>
                  <code value="mybd"/>
                  <display value="Tuberkulose, bei Behandlungsabbruch"/>
               </coding>
            </code>
            <subject>
               <reference value="Patient/b2a47276-f22e-3ca9-8f8a-f08729ec7b19"/>
            </subject>
            <recordedDate value="2023-04-20"/>
            <note>
               <text value="Textueller Hinweis"/>
            </note>
         </Condition>
      </resource>
   </entry>
   <entry>
      <fullUrl value="https://demis.rki.de/fhir/Organization/60e5010f-4684-4f05-8193-645f40869255"/>
      <resource>
         <Organization xmlns="http://hl7.org/fhir">
            <id value="60e5010f-4684-4f05-8193-645f40869255"/>
            <meta>
               <profile value="https://demis.rki.de/fhir/StructureDefinition/NotifierFacility"/>
            </meta>
            <identifier>
               <system value="https://fhir.kbv.de/NamingSystem/KBV_NS_Base_BSNR"/>
               <value value="987653400"/>
            </identifier>
            <type>
               <coding>
                  <system value="https://demis.rki.de/fhir/CodeSystem/organizationType"/>
                  <code value="physicianOffice"/>
               </coding>
            </type>
            <name value="Hausarztpraxis Hamburg (Standort Berlin)"/>
            <telecom>
               <system value="phone"/>
               <value value="0308976543210"/>
               <use value="work"/>
            </telecom>
            <address>
               <line value="Berliner Str. 23"/>
               <city value="Berlin"/>
               <postalCode value="13055"/>
               <country value="DE"/>
            </address>
         </Organization>
      </resource>
   </entry>
   <entry>
      <fullUrl value="https://demis.rki.de/fhir/PractitionerRole/139b96e7-fe5b-3d73-b7c3-1143ea876006"/>
      <resource>
         <PractitionerRole xmlns="http://hl7.org/fhir">
            <id value="139b96e7-fe5b-3d73-b7c3-1143ea876006"/>
            <meta>
               <profile value="https://demis.rki.de/fhir/StructureDefinition/NotifierRole"/>
            </meta>
            <organization>
               <reference value="Organization/60e5010f-4684-4f05-8193-645f40869255"/>
            </organization>
         </PractitionerRole>
      </resource>
   </entry>
   <entry>
      <fullUrl value="https://demis.rki.de/fhir/Organization/fe16f8b6-8947-4b5e-9c49-db7200410616"/>
      <resource>
         <Organization xmlns="http://hl7.org/fhir">
            <id value="fe16f8b6-8947-4b5e-9c49-db7200410616"/>
            <meta>
               <profile value="http://hl7.org/fhir/StructureDefinition/Organization"/>
            </meta>
            <type>
               <coding>
                  <system value="https://demis.rki.de/fhir/CodeSystem/organizationType"/>
                  <code value="hospitalLab"/>
               </coding>
            </type>
            <name value="Sankt Gertrauden Krankenhaus - Krankenhauslabor"/>
            <telecom>
               <system value="phone"/>
               <value value="0309876543211"/>
               <use value="work"/>
            </telecom>
            <address>
               <line value="Dingsweg 321"/>
               <city value="Berlin"/>
               <postalCode value="13055"/>
               <country value="DE"/>
            </address>
         </Organization>
      </resource>
   </entry>
   <entry>
      <fullUrl value="https://demis.rki.de/fhir/QuestionnaireResponse/4e85b578-fcc4-3fd6-aa48-276efd376bf5"/>
      <resource>
         <QuestionnaireResponse xmlns="http://hl7.org/fhir">
            <id value="4e85b578-fcc4-3fd6-aa48-276efd376bf5"/>
            <meta>
               <profile value="https://demis.rki.de/fhir/StructureDefinition/DiseaseInformationCommon"/>
            </meta>
            <questionnaire value="https://demis.rki.de/fhir/Questionnaire/DiseaseQuestionsCommon"/>
            <status value="completed"/>
            <subject>
               <reference value="Patient/b2a47276-f22e-3ca9-8f8a-f08729ec7b19"/>
            </subject>
            <item>
               <linkId value="isDead"/>
               <answer>
                  <valueCoding>
                     <system value="http://terminology.hl7.org/CodeSystem/v3-NullFlavor"/>
                     <code value="ASKU"/>
                     <display value="asked but unknown"/>
                  </valueCoding>
               </answer>
            </item>
            <item>
               <linkId value="militaryAffiliation"/>
               <answer>
                  <valueCoding>
                     <system value="http://terminology.hl7.org/CodeSystem/v3-NullFlavor"/>
                     <code value="ASKU"/>
                     <display value="asked but unknown"/>
                  </valueCoding>
               </answer>
            </item>
            <item>
               <linkId value="labSpecimenTaken"/>
               <answer>
                  <valueCoding>
                     <system value="https://demis.rki.de/fhir/CodeSystem/yesOrNoAnswer"/>
                     <code value="yes"/>
                     <display value="Ja"/>
                  </valueCoding>
                  <item>
                     <linkId value="labSpecimenLab"/>
                     <answer>
                        <valueReference>
                           <reference value="Organization/fe16f8b6-8947-4b5e-9c49-db7200410616"/>
                        </valueReference>
                     </answer>
                  </item>
               </answer>
            </item>
            <item>
               <linkId value="hospitalized"/>
               <answer>
                  <valueCoding>
                     <system value="http://terminology.hl7.org/CodeSystem/v3-NullFlavor"/>
                     <code value="ASKU"/>
                     <display value="asked but unknown"/>
                  </valueCoding>
               </answer>
            </item>
            <item>
               <linkId value="infectProtectFacility"/>
               <answer>
                  <valueCoding>
                     <system value="http://terminology.hl7.org/CodeSystem/v3-NullFlavor"/>
                     <code value="ASKU"/>
                     <display value="asked but unknown"/>
                  </valueCoding>
               </answer>
            </item>
            <item>
               <linkId value="placeExposure"/>
               <answer>
                  <valueCoding>
                     <system value="http://terminology.hl7.org/CodeSystem/v3-NullFlavor"/>
                     <code value="ASKU"/>
                     <display value="asked but unknown"/>
                  </valueCoding>
               </answer>
            </item>
            <item>
               <linkId value="organDonation"/>
               <answer>
                  <valueCoding>
                     <system value="https://demis.rki.de/fhir/CodeSystem/yesOrNoAnswer"/>
                     <code value="yes"/>
                     <display value="Ja"/>
                  </valueCoding>
               </answer>
            </item>
         </QuestionnaireResponse>
      </resource>
   </entry>
   <entry>
      <fullUrl value="https://demis.rki.de/fhir/QuestionnaireResponse/a00b8845-2ebd-3c4d-bfb7-d7fa3d618c63"/>
      <resource>
         <QuestionnaireResponse xmlns="http://hl7.org/fhir">
            <id value="a00b8845-2ebd-3c4d-bfb7-d7fa3d618c63"/>
            <meta>
               <profile value="https://demis.rki.de/fhir/StructureDefinition/DiseaseInformationMYBD"/>
            </meta>
            <questionnaire value="https://demis.rki.de/fhir/Questionnaire/DiseaseQuestionsMYBD"/>
            <status value="completed"/>
            <subject>
               <reference value="Patient/b2a47276-f22e-3ca9-8f8a-f08729ec7b19"/>
            </subject>
            <item>
               <linkId value="reasonTherapyEnd"/>
               <answer>
                  <valueCoding>
                     <system value="http://snomed.info/sct"/>
                     <code value="406149000"/>
                     <display value="Behandlungsverweigerung"/>
                  </valueCoding>
               </answer>
            </item>
         </QuestionnaireResponse>
      </resource>
   </entry>
</Bundle>
