<?xml version="1.0" encoding="UTF-8"?>
<Bundle xmlns="http://hl7.org/fhir">
   <id value="9dc44988-060e-3e1b-a8be-ccfc5efec666"/>
   <meta>
      <lastUpdated value="2023-01-20T09:50:00.000+01:00"/>
      <profile value="https://demis.rki.de/fhir/StructureDefinition/NotificationBundleDisease"/>
   </meta>
   <identifier>
      <system value="https://demis.rki.de/fhir/NamingSystem/NotificationBundleId"/>
      <value value="2fa8c344-03be-32a1-81a2-b45ab0e9171c"/>
   </identifier>
   <type value="document"/>
   <timestamp value="2023-01-20T09:50:00.000+01:00"/>
   <entry>
      <fullUrl value="https://demis.rki.de/fhir/Composition/4e1d11d8-7e75-3734-9e72-775abc74e8d8"/>
      <resource>
         <Composition xmlns="http://hl7.org/fhir">
            <id value="4e1d11d8-7e75-3734-9e72-775abc74e8d8"/>
            <meta>
               <lastUpdated value="2023-01-20T09:50:00.000+01:00"/>
               <profile value="https://demis.rki.de/fhir/StructureDefinition/NotificationDiseaseHAVD"/>
            </meta>
            <identifier>
               <system value="https://demis.rki.de/fhir/NamingSystem/NotificationId"/>
               <value value="6ff15e74-98b7-11ed-a8fc-0242ac120002"/>
            </identifier>
            <status value="final"/>
            <type>
               <coding>
                  <system value="http://loinc.org"/>
                  <code value="34782-3"/>
                  <display value="Infectious disease Note"/>
               </coding>
            </type>
            <category>
               <coding>
                  <system value="https://demis.rki.de/fhir/CodeSystem/notificationType"/>
                  <code value="6.1_2"/>
                  <display value="Meldung gemäß §6 Absatz 1, 2"/>
               </coding>
            </category>
            <subject>
               <reference value="Patient/94093013-3f84-3f26-97c7-4528cf773eb9"/>
            </subject>
            <date value="2023-01-26T01:00:00+01:00"/>
            <author>
               <reference value="PractitionerRole/8cca3c79-6c76-3d12-a079-47b1fe594647"/>
            </author>
            <title value="Meldung gemäß §6 Absatz 1, 2 IfSG"/>
            <section>
               <title value="Diagnose"/>
               <code>
                  <coding>
                     <system value="https://demis.rki.de/fhir/CodeSystem/sectionCode"/>
                     <code value="diagnosis"/>
                     <display value="Diagnose"/>
                  </coding>
               </code>
               <entry>
                  <reference value="Condition/d4dd535f-d2de-334c-a17d-909d0adc378a"/>
               </entry>
            </section>
            <section>
               <title value="Meldetatbestandsübergreifende klinische und epidemiologische Angaben"/>
               <code>
                  <coding>
                     <system value="https://demis.rki.de/fhir/CodeSystem/sectionCode"/>
                     <code value="generalClinAndEpiInformation"/>
                     <display value="Meldetatbestandsübergreifende klinische und epidemiologische Angaben"/>
                  </coding>
               </code>
               <entry>
                  <reference value="QuestionnaireResponse/29f1020a-63de-3c8b-9965-feb149853a89"/>
               </entry>
            </section>
            <section>
               <title value="Meldetatbestandsspezifische klinische und epidemiologische Angaben"/>
               <code>
                  <coding>
                     <system value="https://demis.rki.de/fhir/CodeSystem/sectionCode"/>
                     <code value="specificClinAndEpiInformation"/>
                     <display value="Meldetatbestandsspezifische klinische und epidemiologische Angaben"/>
                  </coding>
               </code>
               <entry>
                  <reference value="QuestionnaireResponse/450df31e-ac68-311c-9046-5175bf38e247"/>
               </entry>
            </section>
         </Composition>
      </resource>
   </entry>
   <entry>
      <fullUrl value="https://demis.rki.de/fhir/Organization/8806973e-ea9e-36b5-9bfe-90ee5827170f"/>
      <resource>
         <Organization xmlns="http://hl7.org/fhir">
            <id value="8806973e-ea9e-36b5-9bfe-90ee5827170f"/>
            <meta>
               <profile value="https://demis.rki.de/fhir/StructureDefinition/NotifiedPersonFacility"/>
            </meta>
            <name value="Sankt Titania Krankenhaus"/>
            <address>
               <line value="Eisberger Straße 14"/>
               <city value="Berlin"/>
               <postalCode value="41912"/>
               <country value="DE"/>
            </address>
            <contact>
               <name>
                  <use value="official"/>
                  <family value="Jakobsen"/>
                  <given value="Rosa"/>
               </name>
            </contact>
         </Organization>
      </resource>
   </entry>
   <entry>
      <fullUrl value="https://demis.rki.de/fhir/Patient/94093013-3f84-3f26-97c7-4528cf773eb9"/>
      <resource>
         <Patient xmlns="http://hl7.org/fhir">
            <id value="94093013-3f84-3f26-97c7-4528cf773eb9"/>
            <meta>
               <profile value="https://demis.rki.de/fhir/StructureDefinition/NotifiedPerson"/>
            </meta>
            <name>
               <use value="official"/>
               <family value="Meyer"/>
               <given value="Christoph"/>
            </name>
            <telecom>
               <system value="phone"/>
               <value value="030 123456789"/>
            </telecom>
            <telecom>
               <system value="email"/>
               <value value="bb@hfksjfhdaksljdfhsakl.de"/>
            </telecom>
            <gender value="male"/>
            <birthDate value="1956-10-04"/>
            <address>
               <extension url="https://demis.rki.de/fhir/StructureDefinition/AddressUse">
                  <valueCoding>
                     <system value="https://demis.rki.de/fhir/CodeSystem/addressUse"/>
                     <code value="current"/>
                  </valueCoding>
               </extension>
               <extension url="https://demis.rki.de/fhir/StructureDefinition/FacilityAddressNotifiedPerson">
                  <valueReference>
                     <reference value="Organization/8806973e-ea9e-36b5-9bfe-90ee5827170f"/>
                  </valueReference>
               </extension>
            </address>
            <address>
               <extension url="https://demis.rki.de/fhir/StructureDefinition/AddressUse">
                  <valueCoding>
                     <system value="https://demis.rki.de/fhir/CodeSystem/addressUse"/>
                     <code value="primary"/>
                  </valueCoding>
               </extension>
               <line value="Musketier Weg 9"/>
               <city value="Berlin"/>
               <postalCode value="10397"/>
               <country value="DE"/>
            </address>
         </Patient>
      </resource>
   </entry>
   <entry>
      <fullUrl value="https://demis.rki.de/fhir/Condition/d4dd535f-d2de-334c-a17d-909d0adc378a"/>
      <resource>
         <Condition xmlns="http://hl7.org/fhir">
            <id value="d4dd535f-d2de-334c-a17d-909d0adc378a"/>
            <meta>
               <profile value="https://demis.rki.de/fhir/StructureDefinition/DiseaseHAVD"/>
            </meta>
            <verificationStatus>
               <coding>
                  <system value="http://terminology.hl7.org/CodeSystem/condition-ver-status"/>
                  <code value="confirmed"/>
               </coding>
            </verificationStatus>
            <code>
               <coding>
                  <system value="https://demis.rki.de/fhir/CodeSystem/notificationDiseaseCategory"/>
                  <code value="havd"/>
                  <display value="Hepatitis A"/>
               </coding>
            </code>
            <subject>
               <reference value="Patient/94093013-3f84-3f26-97c7-4528cf773eb9"/>
            </subject>
            <onsetDateTime value="2023-01-20"/>
            <recordedDate value="2023-01-26"/>
            <evidence>
               <code>
                  <coding>
                     <system value="http://snomed.info/sct"/>
                     <code value="105721009:363698007=80581009"/>
                     <display value="Oberbauchbeschwerden"/>
                  </coding>
               </code>
            </evidence>
            <evidence>
               <code>
                  <coding>
                     <system value="http://snomed.info/sct"/>
                     <code value="386661006"/>
                     <display value="Fieber"/>
                  </coding>
               </code>
            </evidence>
            <evidence>
               <code>
                  <coding>
                     <system value="http://snomed.info/sct"/>
                     <code value="707724006"/>
                     <display value="Serumtransaminasen, erhöht;"/>
                  </coding>
               </code>
            </evidence>
            <note>
               <text value="Textueller Hinweis"/>
            </note>
         </Condition>
      </resource>
   </entry>
   <entry>
      <fullUrl value="https://demis.rki.de/fhir/Immunization/0ba5e608-c62b-399c-b869-eac0fb8b6462"/>
      <resource>
         <Immunization xmlns="http://hl7.org/fhir">
            <id value="0ba5e608-c62b-399c-b869-eac0fb8b6462"/>
            <meta>
               <profile value="https://demis.rki.de/fhir/StructureDefinition/ImmunizationInformationHAVD"/>
            </meta>
            <status value="completed"/>
            <vaccineCode>
               <coding>
                  <system value="http://snomed.info/sct"/>
                  <code value="121000221105"/>
                  <display value="Hepatitis A / Hepatitis B (rDNA) (Virusimpfstoff, inaktiviert) - Erwachsene (Twinrix Erwachsene)"/>
               </coding>
            </vaccineCode>
            <patient>
               <reference value="Patient/94093013-3f84-3f26-97c7-4528cf773eb9"/>
            </patient>
            <occurrenceDateTime value="2002-02-01"/>
            <note>
               <text value="-"/>
            </note>
         </Immunization>
      </resource>
   </entry>
   <entry>
      <fullUrl value="https://demis.rki.de/fhir/Immunization/de699996-4d77-3b4d-8b15-c03ca2a54428"/>
      <resource>
         <Immunization xmlns="http://hl7.org/fhir">
            <id value="de699996-4d77-3b4d-8b15-c03ca2a54428"/>
            <meta>
               <profile value="https://demis.rki.de/fhir/StructureDefinition/ImmunizationInformationHAVD"/>
            </meta>
            <status value="completed"/>
            <vaccineCode>
               <coding>
                  <system value="http://snomed.info/sct"/>
                  <code value="121000221105"/>
                  <display value="Hepatitis A / Hepatitis B (rDNA) (Virusimpfstoff, inaktiviert) - Erwachsene (Twinrix Erwachsene)"/>
               </coding>
            </vaccineCode>
            <patient>
               <reference value="Patient/94093013-3f84-3f26-97c7-4528cf773eb9"/>
            </patient>
            <occurrenceDateTime value="2002-06-13"/>
            <note>
               <text value="-"/>
            </note>
         </Immunization>
      </resource>
   </entry>
   <entry>
      <fullUrl value="https://demis.rki.de/fhir/Immunization/36b97d4c-ffed-3f4a-b6bc-27886cc908b8"/>
      <resource>
         <Immunization xmlns="http://hl7.org/fhir">
            <id value="36b97d4c-ffed-3f4a-b6bc-27886cc908b8"/>
            <meta>
               <profile value="https://demis.rki.de/fhir/StructureDefinition/ImmunizationInformationHAVD"/>
            </meta>
            <status value="completed"/>
            <vaccineCode>
               <coding>
                  <system value="http://snomed.info/sct"/>
                  <code value="121000221105"/>
                  <display value="Hepatitis A / Hepatitis B (rDNA) (Virusimpfstoff, inaktiviert) - Erwachsene (Twinrix Erwachsene)"/>
               </coding>
            </vaccineCode>
            <patient>
               <reference value="Patient/94093013-3f84-3f26-97c7-4528cf773eb9"/>
            </patient>
            <occurrenceDateTime value="2002-08-13"/>
            <note>
               <text value="-"/>
            </note>
         </Immunization>
      </resource>
   </entry>
   <entry>
      <fullUrl value="https://demis.rki.de/fhir/Organization/0daa28f4-98b7-11ed-a8fc-0242ac120002"/>
      <resource>
         <Organization xmlns="http://hl7.org/fhir">
            <id value="0daa28f4-98b7-11ed-a8fc-0242ac120002"/>
            <meta>
               <profile value="https://demis.rki.de/fhir/StructureDefinition/NotifierFacility"/>
            </meta>
            <identifier>
               <system value="https://fhir.kbv.de/NamingSystem/KBV_NS_Base_BSNR"/>
               <value value="987653400"/>
            </identifier>
            <type>
               <coding>
                  <system value="https://demis.rki.de/fhir/CodeSystem/organizationType"/>
                  <code value="physicianOffice"/>
               </coding>
            </type>
            <name value="Sankt Titania Krankenhaus – Meldestandort"/>
            <telecom>
               <system value="phone"/>
               <value value="0308976543210"/>
               <use value="work"/>
            </telecom>
            <address>
               <line value="Eisberger Straße 14"/>
               <city value="Berlin"/>
               <postalCode value="41912"/>
               <country value="DE"/>
            </address>
         </Organization>
      </resource>
   </entry>
   <entry>
      <fullUrl value="https://demis.rki.de/fhir/PractitionerRole/8cca3c79-6c76-3d12-a079-47b1fe594647"/>
      <resource>
         <PractitionerRole xmlns="http://hl7.org/fhir">
            <id value="8cca3c79-6c76-3d12-a079-47b1fe594647"/>
            <meta>
               <profile value="https://demis.rki.de/fhir/StructureDefinition/NotifierRole"/>
            </meta>
            <organization>
               <reference value="Organization/0daa28f4-98b7-11ed-a8fc-0242ac120002"/>
            </organization>
         </PractitionerRole>
      </resource>
   </entry>
   <entry>
      <fullUrl value="https://demis.rki.de/fhir/Organization/29c89e9e-98b7-11ed-a8fc-0242ac120002"/>
      <resource>
         <Organization xmlns="http://hl7.org/fhir">
            <id value="29c89e9e-98b7-11ed-a8fc-0242ac120002"/>
            <meta>
               <profile value="http://hl7.org/fhir/StructureDefinition/Organization"/>
            </meta>
            <type>
               <coding>
                  <system value="https://demis.rki.de/fhir/CodeSystem/organizationType"/>
                  <code value="hospitalLab"/>
               </coding>
            </type>
            <name value="Sankt Titania Krankenhaus – Krankenhauslabor"/>
            <telecom>
               <system value="phone"/>
               <value value="01419122345"/>
               <use value="work"/>
            </telecom>
            <address>
               <line value="Eisberger Straße 14"/>
               <city value="Berlin"/>
               <postalCode value="41912"/>
               <country value="DE"/>
            </address>
         </Organization>
      </resource>
   </entry>
   <entry>
      <fullUrl value="https://demis.rki.de/fhir/Encounter/148c5e1f-d3f1-3f93-ba6d-6c94113ed833"/>
      <resource>
         <Encounter xmlns="http://hl7.org/fhir">
            <id value="148c5e1f-d3f1-3f93-ba6d-6c94113ed833"/>
            <meta>
               <profile value="https://demis.rki.de/fhir/StructureDefinition/Hospitalization"/>
            </meta>
            <status value="in-progress"/>
            <class>
               <system value="http://terminology.hl7.org/CodeSystem/v3-ActCode"/>
               <code value="IMP"/>
               <display value="inpatient encounter"/>
            </class>
            <serviceType>
               <coding>
                  <system value="https://demis.rki.de/fhir/CodeSystem/hospitalizationServiceType"/>
                  <code value="3700"/>
                  <display value="Sonstige Fachabteilung"/>
               </coding>
            </serviceType>
            <subject>
               <reference value="Patient/94093013-3f84-3f26-97c7-4528cf773eb9"/>
            </subject>
            <period>
               <start value="2023-01-26"/>
            </period>
            <serviceProvider>
               <reference value="Organization/8806973e-ea9e-36b5-9bfe-90ee5827170f"/>
            </serviceProvider>
         </Encounter>
      </resource>
   </entry>
   <entry>
      <fullUrl value="https://demis.rki.de/fhir/QuestionnaireResponse/29f1020a-63de-3c8b-9965-feb149853a89"/>
      <resource>
         <QuestionnaireResponse xmlns="http://hl7.org/fhir">
            <id value="29f1020a-63de-3c8b-9965-feb149853a89"/>
            <meta>
               <profile value="https://demis.rki.de/fhir/StructureDefinition/DiseaseInformationCommon"/>
            </meta>
            <questionnaire value="https://demis.rki.de/fhir/Questionnaire/DiseaseQuestionsCommon"/>
            <status value="completed"/>
            <subject>
               <reference value="Patient/94093013-3f84-3f26-97c7-4528cf773eb9"/>
            </subject>
            <item>
               <linkId value="isDead"/>
               <answer>
                  <valueCoding>
                     <system value="https://demis.rki.de/fhir/CodeSystem/yesOrNoAnswer"/>
                     <code value="no"/>
                     <display value="Nein"/>
                  </valueCoding>
               </answer>
            </item>
            <item>
               <linkId value="militaryAffiliation"/>
               <answer>
                  <valueCoding>
                     <system value="https://demis.rki.de/fhir/CodeSystem/militaryAffiliation"/>
                     <code value="noReferenceToBundeswehr"/>
                     <display value="Kein Bezug zur BW"/>
                  </valueCoding>
               </answer>
            </item>
            <item>
               <linkId value="labSpecimenTaken"/>
               <answer>
                  <valueCoding>
                     <system value="https://demis.rki.de/fhir/CodeSystem/yesOrNoAnswer"/>
                     <code value="yes"/>
                     <display value="Ja"/>
                  </valueCoding>
                  <item>
                     <linkId value="labSpecimenLab"/>
                     <answer>
                        <valueReference>
                           <reference value="Organization/29c89e9e-98b7-11ed-a8fc-0242ac120002"/>
                        </valueReference>
                     </answer>
                  </item>
               </answer>
            </item>
            <item>
               <linkId value="hospitalized"/>
               <answer>
                  <valueCoding>
                     <system value="https://demis.rki.de/fhir/CodeSystem/yesOrNoAnswer"/>
                     <code value="yes"/>
                     <display value="Ja"/>
                  </valueCoding>
                  <item>
                     <linkId value="hospitalizedGroup"/>
                     <item>
                        <linkId value="hospitalizedEncounter"/>
                        <answer>
                           <valueReference>
                              <reference value="Encounter/148c5e1f-d3f1-3f93-ba6d-6c94113ed833"/>
                           </valueReference>
                        </answer>
                     </item>
                  </item>
               </answer>
            </item>
            <item>
               <linkId value="infectProtectFacility"/>
               <answer>
                  <valueCoding>
                     <system value="https://demis.rki.de/fhir/CodeSystem/yesOrNoAnswer"/>
                     <code value="no"/>
                     <display value="Nein"/>
                  </valueCoding>
               </answer>
            </item>
            <item>
               <linkId value="placeExposure"/>
               <answer>
                  <valueCoding>
                     <system value="https://demis.rki.de/fhir/CodeSystem/yesOrNoAnswer"/>
                     <code value="yes"/>
                     <display value="Ja"/>
                  </valueCoding>
                  <item>
                     <linkId value="placeExposureGroup"/>
                     <item>
                        <linkId value="placeExposureBegin"/>
                        <answer>
                           <valueDate value="2023-01-01"/>
                        </answer>
                     </item>
                     <item>
                        <linkId value="placeExposureEnd"/>
                        <answer>
                           <valueDate value="2023-01-20"/>
                        </answer>
                     </item>
                     <item>
                        <linkId value="placeExposureRegion"/>
                        <answer>
                           <valueCoding>
                              <system value="https://demis.rki.de/fhir/CodeSystem/geographicRegion"/>
                              <code value="21000208"/>
                              <display value="Türkei"/>
                           </valueCoding>
                        </answer>
                     </item>
                     <item>
                        <linkId value="placeExposureHint"/>
                        <answer>
                           <valueString value="Urlaub"/>
                        </answer>
                     </item>
                  </item>
               </answer>
            </item>
            <item>
               <linkId value="organDonation"/>
               <answer>
                  <valueCoding>
                     <system value="https://demis.rki.de/fhir/CodeSystem/yesOrNoAnswer"/>
                     <code value="no"/>
                     <display value="Nein"/>
                  </valueCoding>
               </answer>
            </item>
         </QuestionnaireResponse>
      </resource>
   </entry>
   <entry>
      <fullUrl value="https://demis.rki.de/fhir/QuestionnaireResponse/450df31e-ac68-311c-9046-5175bf38e247"/>
      <resource>
         <QuestionnaireResponse xmlns="http://hl7.org/fhir">
            <id value="450df31e-ac68-311c-9046-5175bf38e247"/>
            <meta>
               <profile value="https://demis.rki.de/fhir/StructureDefinition/DiseaseInformationHAVD"/>
            </meta>
            <questionnaire value="https://demis.rki.de/fhir/Questionnaire/DiseaseQuestionsHAVD"/>
            <status value="completed"/>
            <subject>
               <reference value="Patient/94093013-3f84-3f26-97c7-4528cf773eb9"/>
            </subject>
            <item>
               <linkId value="immunization"/>
               <answer>
                  <valueCoding>
                     <system value="https://demis.rki.de/fhir/CodeSystem/yesOrNoAnswer"/>
                     <code value="yes"/>
                     <display value="Ja"/>
                  </valueCoding>
                  <item>
                     <linkId value="immunizationRef"/>
                     <answer>
                        <valueReference>
                           <reference value="Immunization/0ba5e608-c62b-399c-b869-eac0fb8b6462"/>
                        </valueReference>
                     </answer>
                  </item>
                  <item>
                     <linkId value="immunizationRef"/>
                     <answer>
                        <valueReference>
                           <reference value="Immunization/de699996-4d77-3b4d-8b15-c03ca2a54428"/>
                        </valueReference>
                     </answer>
                  </item>
                  <item>
                     <linkId value="immunizationRef"/>
                     <answer>
                        <valueReference>
                           <reference value="Immunization/36b97d4c-ffed-3f4a-b6bc-27886cc908b8"/>
                        </valueReference>
                     </answer>
                  </item>
               </answer>
            </item>
            <item>
               <linkId value="infectionPathKind"/>
               <answer>
                  <valueCoding>
                     <system value="http://snomed.info/sct"/>
                     <code value="44027008"/>
                     <display value="Meeresfrüchte, z.B. Austern Muscheln"/>
                  </valueCoding>
               </answer>
            </item>
            <item>
               <linkId value="outbreak"/>
               <answer>
                  <valueCoding>
                     <system value="https://demis.rki.de/fhir/CodeSystem/yesOrNoAnswer"/>
                     <code value="no"/>
                     <display value="Nein"/>
                  </valueCoding>
               </answer>
            </item>
         </QuestionnaireResponse>
      </resource>
   </entry>
</Bundle>
