<?xml version="1.0" encoding="UTF-8"?>
<Bundle xmlns="http://hl7.org/fhir">
   <id value="b479829e-21ac-36cd-8378-4a4f2787894c"/>
   <meta>
      <lastUpdated value="2022-12-07T09:50:00.000+01:00"/>
      <profile value="https://demis.rki.de/fhir/StructureDefinition/NotificationBundleDisease"/>
   </meta>
   <identifier>
      <system value="https://demis.rki.de/fhir/NamingSystem/NotificationBundleId"/>
      <value value="3d331df6-e747-3afd-b05e-55a31a4b8a33"/>
   </identifier>
   <type value="document"/>
   <timestamp value="2022-12-07T09:50:00.000+01:00"/>
   <entry>
      <fullUrl value="https://demis.rki.de/fhir/Composition/1c011f55-68c9-398b-ac32-5c66dfc2e6c0"/>
      <resource>
         <Composition xmlns="http://hl7.org/fhir">
            <id value="1c011f55-68c9-398b-ac32-5c66dfc2e6c0"/>
            <meta>
               <lastUpdated value="2022-12-07T09:50:00.000+01:00"/>
               <profile value="https://demis.rki.de/fhir/StructureDefinition/NotificationDiseaseVZWD"/>
            </meta>
            <identifier>
               <system value="https://demis.rki.de/fhir/NamingSystem/NotificationId"/>
               <value value="693a642d-4d00-4e71-a3ac-2762d2b605b5"/>
            </identifier>
            <status value="final"/>
            <type>
               <coding>
                  <system value="http://loinc.org"/>
                  <code value="34782-3"/>
                  <display value="Infectious disease Note"/>
               </coding>
            </type>
            <category>
               <coding>
                  <system value="https://demis.rki.de/fhir/CodeSystem/notificationType"/>
                  <code value="6.1_2"/>
                  <display value="Meldung gemäß §6 Absatz 1, 2"/>
               </coding>
            </category>
            <subject>
               <reference value="Patient/219fec76-9414-3698-a767-4447430c9223"/>
            </subject>
            <date value="2022-12-07T01:00:00+01:00"/>
            <author>
               <reference value="PractitionerRole/2749aad1-eecf-3b7d-b5b5-62dea537184e"/>
            </author>
            <title value="Meldung gemäß §6 Absatz 1, 2 IfSG"/>
            <section>
               <title value="Diagnose"/>
               <code>
                  <coding>
                     <system value="https://demis.rki.de/fhir/CodeSystem/sectionCode"/>
                     <code value="diagnosis"/>
                     <display value="Diagnose"/>
                  </coding>
               </code>
               <entry>
                  <reference value="Condition/35606d59-ece4-3338-a182-d42f7943ff81"/>
               </entry>
            </section>
            <section>
               <title value="Meldetatbestandsübergreifende klinische und epidemiologische Angaben"/>
               <code>
                  <coding>
                     <system value="https://demis.rki.de/fhir/CodeSystem/sectionCode"/>
                     <code value="generalClinAndEpiInformation"/>
                     <display value="Meldetatbestandsübergreifende klinische und epidemiologische Angaben"/>
                  </coding>
               </code>
               <entry>
                  <reference value="QuestionnaireResponse/ed4cb79a-2ea1-34ce-a87c-a174c855ba7e"/>
               </entry>
            </section>
            <section>
               <title value="Meldetatbestandsspezifische klinische und epidemiologische Angaben"/>
               <code>
                  <coding>
                     <system value="https://demis.rki.de/fhir/CodeSystem/sectionCode"/>
                     <code value="specificClinAndEpiInformation"/>
                     <display value="Meldetatbestandsspezifische klinische und epidemiologische Angaben"/>
                  </coding>
               </code>
               <entry>
                  <reference value="QuestionnaireResponse/fd31ec7b-bd9c-3762-a43d-fe63539c5656"/>
               </entry>
            </section>
         </Composition>
      </resource>
   </entry>
   <entry>
      <fullUrl value="https://demis.rki.de/fhir/Patient/219fec76-9414-3698-a767-4447430c9223"/>
      <resource>
         <Patient xmlns="http://hl7.org/fhir">
            <id value="219fec76-9414-3698-a767-4447430c9223"/>
            <meta>
               <profile value="https://demis.rki.de/fhir/StructureDefinition/NotifiedPerson"/>
            </meta>
            <name>
               <use value="official"/>
               <family value="Neubauer"/>
               <given value="Simone"/>
            </name>
            <telecom>
               <system value="email"/>
               <value value="simone_best@domain.de"/>
            </telecom>
            <gender value="female"/>
            <birthDate value="1985-12-01"/>
            <address>
               <extension url="https://demis.rki.de/fhir/StructureDefinition/AddressUse">
                  <valueCoding>
                     <system value="https://demis.rki.de/fhir/CodeSystem/addressUse"/>
                     <code value="primary"/>
                  </valueCoding>
               </extension>
               <line value="Bestestr. 85"/>
               <city value="Berlin"/>
               <postalCode value="13085"/>
               <country value="DE"/>
            </address>
         </Patient>
      </resource>
   </entry>
   <entry>
      <fullUrl value="https://demis.rki.de/fhir/Condition/35606d59-ece4-3338-a182-d42f7943ff81"/>
      <resource>
         <Condition xmlns="http://hl7.org/fhir">
            <id value="35606d59-ece4-3338-a182-d42f7943ff81"/>
            <meta>
               <profile value="https://demis.rki.de/fhir/StructureDefinition/DiseaseVZWD"/>
            </meta>
            <verificationStatus>
               <coding>
                  <system value="http://terminology.hl7.org/CodeSystem/condition-ver-status"/>
                  <code value="confirmed"/>
               </coding>
            </verificationStatus>
            <code>
               <coding>
                  <system value="https://demis.rki.de/fhir/CodeSystem/notificationDiseaseCategory"/>
                  <code value="vzwd"/>
                  <display value="Windpocken"/>
               </coding>
            </code>
            <subject>
               <reference value="Patient/219fec76-9414-3698-a767-4447430c9223"/>
            </subject>
            <onsetDateTime value="2022-12-05"/>
            <recordedDate value="2022-12-07"/>
            <evidence>
               <code>
                  <coding>
                     <system value="http://snomed.info/sct"/>
                     <code value="271807003:116676008=112629002"/>
                     <display value="Ausschlag an Haut oder Schleimhaut mit Flecken (makulös)"/>
                  </coding>
               </code>
            </evidence>
            <evidence>
               <code>
                  <coding>
                     <system value="http://snomed.info/sct"/>
                     <code value="271807003:116676008=339008"/>
                     <display value="Ausschlag an Haut oder Schleimhaut mit Bläschen (vesikulös)"/>
                  </coding>
               </code>
            </evidence>
            <note>
               <text value="Textueller Hinweis"/>
            </note>
         </Condition>
      </resource>
   </entry>
   <entry>
      <fullUrl value="https://demis.rki.de/fhir/Immunization/2a84cc02-689c-38e5-b55e-a16d99527377"/>
      <resource>
         <Immunization xmlns="http://hl7.org/fhir">
            <id value="2a84cc02-689c-38e5-b55e-a16d99527377"/>
            <meta>
               <profile value="https://demis.rki.de/fhir/StructureDefinition/ImmunizationInformationVZWD"/>
            </meta>
            <status value="completed"/>
            <vaccineCode>
               <coding>
                  <system value="http://snomed.info/sct"/>
                  <code value="1010322001"/>
                  <display value="Varizellen Lebendvirusimpfstoff (Varilrix, Varivax)"/>
               </coding>
            </vaccineCode>
            <patient>
               <reference value="Patient/219fec76-9414-3698-a767-4447430c9223"/>
            </patient>
            <occurrenceDateTime value="1986-11-15"/>
            <note>
               <text value="-"/>
            </note>
         </Immunization>
      </resource>
   </entry>
   <entry>
      <fullUrl value="https://demis.rki.de/fhir/Immunization/ac6df303-d424-3349-b6b1-70129d72e8d6"/>
      <resource>
         <Immunization xmlns="http://hl7.org/fhir">
            <id value="ac6df303-d424-3349-b6b1-70129d72e8d6"/>
            <meta>
               <profile value="https://demis.rki.de/fhir/StructureDefinition/ImmunizationInformationVZWD"/>
            </meta>
            <status value="completed"/>
            <vaccineCode>
               <coding>
                  <system value="http://snomed.info/sct"/>
                  <code value="1010322001"/>
                  <display value="Varizellen Lebendvirusimpfstoff (Varilrix, Varivax)"/>
               </coding>
            </vaccineCode>
            <patient>
               <reference value="Patient/219fec76-9414-3698-a767-4447430c9223"/>
            </patient>
            <occurrenceDateTime value="1987-04-20"/>
            <note>
               <text value="-"/>
            </note>
         </Immunization>
      </resource>
   </entry>
   <entry>
      <fullUrl value="https://demis.rki.de/fhir/Organization/c9741e45-8603-4b95-a53f-ff3055dc541b"/>
      <resource>
         <Organization xmlns="http://hl7.org/fhir">
            <id value="c9741e45-8603-4b95-a53f-ff3055dc541b"/>
            <meta>
               <profile value="https://demis.rki.de/fhir/StructureDefinition/NotifierFacility"/>
            </meta>
            <identifier>
               <system value="https://fhir.kbv.de/NamingSystem/KBV_NS_Base_BSNR"/>
               <value value="859009100"/>
            </identifier>
            <type>
               <coding>
                  <system value="https://demis.rki.de/fhir/CodeSystem/organizationType"/>
                  <code value="physicianOffice"/>
               </coding>
            </type>
            <name value="Hausarztpraxis KrankNieWieder"/>
            <telecom>
               <system value="phone"/>
               <value value="0308976543210"/>
               <use value="work"/>
            </telecom>
            <address>
               <line value="Bestestr. 83"/>
               <city value="Berlin"/>
               <postalCode value="13085"/>
               <country value="DE"/>
            </address>
         </Organization>
      </resource>
   </entry>
   <entry>
      <fullUrl value="https://demis.rki.de/fhir/PractitionerRole/2749aad1-eecf-3b7d-b5b5-62dea537184e"/>
      <resource>
         <PractitionerRole xmlns="http://hl7.org/fhir">
            <id value="2749aad1-eecf-3b7d-b5b5-62dea537184e"/>
            <meta>
               <profile value="https://demis.rki.de/fhir/StructureDefinition/NotifierRole"/>
            </meta>
            <organization>
               <reference value="Organization/c9741e45-8603-4b95-a53f-ff3055dc541b"/>
            </organization>
         </PractitionerRole>
      </resource>
   </entry>
   <entry>
      <fullUrl value="https://demis.rki.de/fhir/Organization/5a2ebc32-d8e8-4e65-b539-92f6bbd982c1"/>
      <resource>
         <Organization xmlns="http://hl7.org/fhir">
            <id value="5a2ebc32-d8e8-4e65-b539-92f6bbd982c1"/>
            <meta>
               <profile value="http://hl7.org/fhir/StructureDefinition/Organization"/>
            </meta>
            <type>
               <coding>
                  <system value="https://demis.rki.de/fhir/CodeSystem/organizationType"/>
                  <code value="hospitalLab"/>
               </coding>
            </type>
            <name value="Sankt Gertrauden Krankenhaus - Krankenhauslabor"/>
            <telecom>
               <system value="phone"/>
               <value value="0309876543211"/>
               <use value="work"/>
            </telecom>
            <address>
               <line value="Dingsweg 321"/>
               <city value="Berlin"/>
               <postalCode value="13055"/>
               <country value="DE"/>
            </address>
         </Organization>
      </resource>
   </entry>
   <entry>
      <fullUrl value="https://demis.rki.de/fhir/Organization/975fadcc-f5d4-45a8-9038-9aa405d581da"/>
      <resource>
         <Organization xmlns="http://hl7.org/fhir">
            <id value="975fadcc-f5d4-45a8-9038-9aa405d581da"/>
            <meta>
               <profile value="http://hl7.org/fhir/StructureDefinition/Organization"/>
            </meta>
            <type>
               <coding>
                  <system value="https://demis.rki.de/fhir/CodeSystem/organizationType"/>
                  <code value="maternity"/>
                  <display value="Entbindungseinrichtung"/>
               </coding>
            </type>
            <name value="Marienkrankenhaus Berlin - Geburtshilfe"/>
            <address>
               <line value="Gradestr. 32"/>
               <postalCode value="16128"/>
            </address>
         </Organization>
      </resource>
   </entry>
   <entry>
      <fullUrl value="https://demis.rki.de/fhir/QuestionnaireResponse/ed4cb79a-2ea1-34ce-a87c-a174c855ba7e"/>
      <resource>
         <QuestionnaireResponse xmlns="http://hl7.org/fhir">
            <id value="ed4cb79a-2ea1-34ce-a87c-a174c855ba7e"/>
            <meta>
               <profile value="https://demis.rki.de/fhir/StructureDefinition/DiseaseInformationCommon"/>
            </meta>
            <questionnaire value="https://demis.rki.de/fhir/Questionnaire/DiseaseQuestionsCommon"/>
            <status value="completed"/>
            <subject>
               <reference value="Patient/219fec76-9414-3698-a767-4447430c9223"/>
            </subject>
            <item>
               <linkId value="isDead"/>
               <answer>
                  <valueCoding>
                     <system value="https://demis.rki.de/fhir/CodeSystem/yesOrNoAnswer"/>
                     <code value="no"/>
                     <display value="Nein"/>
                  </valueCoding>
               </answer>
            </item>
            <item>
               <linkId value="militaryAffiliation"/>
               <answer>
                  <valueCoding>
                     <system value="https://demis.rki.de/fhir/CodeSystem/militaryAffiliation"/>
                     <code value="noReferenceToBundeswehr"/>
                     <display value="Kein Bezug zur BW"/>
                  </valueCoding>
               </answer>
            </item>
            <item>
               <linkId value="labSpecimenTaken"/>
               <answer>
                  <valueCoding>
                     <system value="https://demis.rki.de/fhir/CodeSystem/yesOrNoAnswer"/>
                     <code value="yes"/>
                     <display value="Ja"/>
                  </valueCoding>
                  <item>
                     <linkId value="labSpecimenLab"/>
                     <answer>
                        <valueReference>
                           <reference value="Organization/5a2ebc32-d8e8-4e65-b539-92f6bbd982c1"/>
                        </valueReference>
                     </answer>
                  </item>
               </answer>
            </item>
            <item>
               <linkId value="hospitalized"/>
               <answer>
                  <valueCoding>
                     <system value="https://demis.rki.de/fhir/CodeSystem/yesOrNoAnswer"/>
                     <code value="no"/>
                     <display value="Nein"/>
                  </valueCoding>
               </answer>
            </item>
            <item>
               <linkId value="infectProtectFacility"/>
               <answer>
                  <valueCoding>
                     <system value="https://demis.rki.de/fhir/CodeSystem/yesOrNoAnswer"/>
                     <code value="yes"/>
                     <display value="Ja"/>
                  </valueCoding>
                  <item>
                     <linkId value="infectProtectFacilityGroup"/>
                     <item>
                        <linkId value="infectProtectFacilityBegin"/>
                        <answer>
                           <valueDate value="2010-07-15"/>
                        </answer>
                     </item>
                     <item>
                        <linkId value="infectProtectFacilityRole"/>
                        <answer>
                           <valueCoding>
                              <system value="https://demis.rki.de/fhir/CodeSystem/organizationAssociation"/>
                              <code value="employment"/>
                              <display value="Tätigkeit"/>
                           </valueCoding>
                        </answer>
                     </item>
                     <item>
                        <linkId value="infectProtectFacilityOrganization"/>
                        <answer>
                           <valueReference>
                              <reference value="Organization/975fadcc-f5d4-45a8-9038-9aa405d581da"/>
                           </valueReference>
                        </answer>
                     </item>
                  </item>
               </answer>
            </item>
            <item>
               <linkId value="placeExposure"/>
               <answer>
                  <valueCoding>
                     <system value="https://demis.rki.de/fhir/CodeSystem/yesOrNoAnswer"/>
                     <code value="no"/>
                     <display value="Nein"/>
                  </valueCoding>
               </answer>
            </item>
            <item>
               <linkId value="organDonation"/>
               <answer>
                  <valueCoding>
                     <system value="https://demis.rki.de/fhir/CodeSystem/yesOrNoAnswer"/>
                     <code value="yes"/>
                     <display value="Ja"/>
                  </valueCoding>
               </answer>
            </item>
            <item>
               <linkId value="additionalInformation"/>
               <answer>
                  <valueString value="Hebamme bei Marienkrankenhaus Berlin."/>
               </answer>
            </item>
         </QuestionnaireResponse>
      </resource>
   </entry>
   <entry>
      <fullUrl value="https://demis.rki.de/fhir/QuestionnaireResponse/fd31ec7b-bd9c-3762-a43d-fe63539c5656"/>
      <resource>
         <QuestionnaireResponse xmlns="http://hl7.org/fhir">
            <id value="fd31ec7b-bd9c-3762-a43d-fe63539c5656"/>
            <meta>
               <profile value="https://demis.rki.de/fhir/StructureDefinition/DiseaseInformationVZWD"/>
            </meta>
            <questionnaire value="https://demis.rki.de/fhir/Questionnaire/DiseaseQuestionsVZWD"/>
            <status value="completed"/>
            <subject>
               <reference value="Patient/219fec76-9414-3698-a767-4447430c9223"/>
            </subject>
            <item>
               <linkId value="immunization"/>
               <answer>
                  <valueCoding>
                     <system value="https://demis.rki.de/fhir/CodeSystem/yesOrNoAnswer"/>
                     <code value="yes"/>
                     <display value="Ja"/>
                  </valueCoding>
                  <item>
                     <linkId value="immunizationRef"/>
                     <answer>
                        <valueReference>
                           <reference value="Immunization/2a84cc02-689c-38e5-b55e-a16d99527377"/>
                        </valueReference>
                     </answer>
                  </item>
                  <item>
                     <linkId value="immunizationRef"/>
                     <answer>
                        <valueReference>
                           <reference value="Immunization/ac6df303-d424-3349-b6b1-70129d72e8d6"/>
                        </valueReference>
                     </answer>
                  </item>
               </answer>
            </item>
            <item>
               <linkId value="outbreak"/>
               <answer>
                  <valueCoding>
                     <system value="https://demis.rki.de/fhir/CodeSystem/yesOrNoAnswer"/>
                     <code value="no"/>
                     <display value="Nein"/>
                  </valueCoding>
               </answer>
            </item>
         </QuestionnaireResponse>
      </resource>
   </entry>
</Bundle>
